{"FHIR":[{"resourceType":"Observation","id":"CUMC12345","status":"final","code":{"coding":[{"system":"LN","code":"71802-3","display":"What is your living situation today?"}]},"subject":{"reference":"Patient/11223344","display":"Jon Doe"},"effectiveDateTime":"20231207  16:08:01 ","valueString":"I have a steady place to live","performer":[{"reference":"Practitioner/05269d28-15ae-5bd6-bd88-f949ccfa52d7"}],"context":{"reference":"Encounter/CUMC12345"}},{"resourceType":"Observation","id":"CUMC12345","status":"final","code":{"coding":[{"system":"LN","code":"96778-6\t","display":"Think about the place you live. Do you have problems with any of the following?"}]},"subject":{"reference":"Patient/11223344","display":"Jon Doe"},"effectiveDateTime":"20231207  16:08:01 ","valueString":"Mold","performer":[{"reference":"Practitioner/05269d28-15ae-5bd6-bd88-f949ccfa52d7"}],"context":{"reference":"Encounter/CUMC12345"}},{"resourceType":"Observation","id":"CUMC12345","status":"final","code":{"coding":[{"system":"LN","code":"88122-7","display":"Within the past 12 months, you worried that your food would run out before you got money to buy more."}]},"subject":{"reference":"Patient/11223344","display":"Jon Doe"},"effectiveDateTime":"20231207  16:08:01 ","valueString":"Often true","performer":[{"reference":"Practitioner/05269d28-15ae-5bd6-bd88-f949ccfa52d7"}],"context":{"reference":"Encounter/CUMC12345"}},{"resourceType":"Observation","id":"CUMC12345","status":"final","code":{"coding":[{"system":"LN","code":"88123-5","display":"Within the past 12 months, the food you bought just didn't last and you didn't have money to get more."}]},"subject":{"reference":"Patient/11223344","display":"Jon Doe"},"effectiveDateTime":"20231207  16:08:01 ","valueString":"Often true","performer":[{"reference":"Practitioner/05269d28-15ae-5bd6-bd88-f949ccfa52d7"}],"context":{"reference":"Encounter/CUMC12345"}},{"resourceType":"Observation","id":"CUMC12345","status":"final","code":{"coding":[{"system":"LN","code":"93030-5","display":"In the past 12 months, has lack of reliable transportation kept you from medical appointments, meetings, work or from getting things needed for daily living?"}]},"subject":{"reference":"Patient/11223344","display":"Jon Doe"},"effectiveDateTime":"20231207  16:08:01 ","valueString":"No","performer":[{"reference":"Practitioner/05269d28-15ae-5bd6-bd88-f949ccfa52d7"}],"context":{"reference":"Encounter/CUMC12345"}},{"resourceType":"Observation","id":"CUMC12345","status":"final","code":{"coding":[{"system":"LN","code":"96779-4","display":"In the past 12 months has the electric, gas, oil, or water company threatened to shut off services in your home?"}]},"subject":{"reference":"Patient/11223344","display":"Jon Doe"},"effectiveDateTime":"20231207  16:08:01 ","valueString":"No","performer":[{"reference":"Practitioner/05269d28-15ae-5bd6-bd88-f949ccfa52d7"}],"context":{"reference":"Encounter/CUMC12345"}},{"resourceType":"Observation","id":"CUMC12345","status":"final","code":{"coding":[{"system":"LN","code":"95618-5","display":" How often does anyone, including family and friends, physically hurt you?"}]},"subject":{"reference":"Patient/11223344","display":"Jon Doe"},"effectiveDateTime":"20231207  16:08:01 ","valueString":"Never ","performer":[{"reference":"Practitioner/05269d28-15ae-5bd6-bd88-f949ccfa52d7"}],"context":{"reference":"Encounter/CUMC12345"}},{"resourceType":"Observation","id":"CUMC12345","status":"final","code":{"coding":[{"system":"LN","code":"95617-7","display":" How often does anyone, including family and friends, insult or talk down to you?"}]},"subject":{"reference":"Patient/11223344","display":"Jon Doe"},"effectiveDateTime":"20231207  16:08:01 ","valueString":"Never ","performer":[{"reference":"Practitioner/05269d28-15ae-5bd6-bd88-f949ccfa52d7"}],"context":{"reference":"Encounter/CUMC12345"}},{"resourceType":"Observation","id":"CUMC12345","status":"final","code":{"coding":[{"system":"LN","code":"95616-9","display":"How often does anyone, including family and friends, threaten you with harm?"}]},"subject":{"reference":"Patient/11223344","display":"Jon Doe"},"effectiveDateTime":"20231207  16:08:01 ","valueString":"Never ","performer":[{"reference":"Practitioner/05269d28-15ae-5bd6-bd88-f949ccfa52d7"}],"context":{"reference":"Encounter/CUMC12345"}},{"resourceType":"Observation","id":"CUMC12345","status":"final","code":{"coding":[{"system":"LN","code":"95615-1","display":" How often does anyone, including family and friends, scream or curse at you?"}]},"subject":{"reference":"Patient/11223344","display":"Jon Doe"},"effectiveDateTime":"20231207  16:08:01 ","valueString":"Never ","performer":[{"reference":"Practitioner/05269d28-15ae-5bd6-bd88-f949ccfa52d7"}],"context":{"reference":"Encounter/CUMC12345"}},{"resourceType":"Observation","id":"CUMC12345","status":"final","code":{"coding":[{"system":"LN","code":"95614-4","display":"Safety total score"}]},"subject":{"reference":"Patient/11223344","display":"Jon Doe"},"effectiveDateTime":"20231207  16:08:01 ","valueString":"4","performer":[{"reference":"Practitioner/05269d28-15ae-5bd6-bd88-f949ccfa52d7"}],"context":{"reference":"Encounter/CUMC12345"}},{"resourceType":"Observation","id":"CUMC12345","status":"final","code":{"coding":[{"system":"LN","code":"76513-1","display":"How hard is it for you to pay for the very basics like food, housing, medical care, and heating?"}]},"subject":{"reference":"Patient/11223344","display":"Jon Doe"},"effectiveDateTime":"20231207  16:08:01 ","valueString":"Somewhat Hard","performer":[{"reference":"Practitioner/05269d28-15ae-5bd6-bd88-f949ccfa52d7"}],"context":{"reference":"Encounter/CUMC12345"}},{"resourceType":"Observation","id":"CUMC12345","status":"final","code":{"coding":[{"system":"LN","code":"96780-2","display":"Do you want help finding or keeping work or a job?"}]},"subject":{"reference":"Patient/11223344","display":"Jon Doe"},"effectiveDateTime":"20231207  16:08:01 ","valueString":"Yes, help finding work","performer":[{"reference":"Practitioner/05269d28-15ae-5bd6-bd88-f949ccfa52d7"}],"context":{"reference":"Encounter/CUMC12345"}},{"resourceType":"Observation","id":"CUMC12345","status":"final","code":{"coding":[{"system":"LN","code":"96781-0","display":"If for any reason you need help with day-to-day activities such as bathing, preparing meals, shopping, managing finances, etc., do you get the help you need?"}]},"subject":{"reference":"Patient/11223344","display":"Jon Doe"},"effectiveDateTime":"20231207  16:08:01 ","valueString":"I don't need any help","performer":[{"reference":"Practitioner/05269d28-15ae-5bd6-bd88-f949ccfa52d7"}],"context":{"reference":"Encounter/CUMC12345"}},{"resourceType":"Observation","id":"CUMC12345","status":"final","code":{"coding":[{"system":"LN","code":"93159-2\t","display":"How often do you feel lonely or isolated from those around you?"}]},"subject":{"reference":"Patient/11223344","display":"Jon Doe"},"effectiveDateTime":"20231207  16:08:01 ","valueString":"Never ","performer":[{"reference":"Practitioner/05269d28-15ae-5bd6-bd88-f949ccfa52d7"}],"context":{"reference":"Encounter/CUMC12345"}},{"resourceType":"Observation","id":"CUMC12345","status":"final","code":{"coding":[{"system":"LN","code":"97027-7","display":"Do you speak a language other than English at home?"}]},"subject":{"reference":"Patient/11223344","display":"Jon Doe"},"effectiveDateTime":"20231207  16:08:01 ","valueString":"Yes","performer":[{"reference":"Practitioner/05269d28-15ae-5bd6-bd88-f949ccfa52d7"}],"context":{"reference":"Encounter/CUMC12345"}},{"resourceType":"Observation","id":"CUMC12345","status":"final","code":{"coding":[{"system":"LN","code":"96782-8\t","display":"Do you want help with school or training? For example, starting or completing job training or getting a high school diploma, GED or equivalent."}]},"subject":{"reference":"Patient/11223344","display":"Jon Doe"},"effectiveDateTime":"20231207  16:08:01 ","valueString":"Yes","performer":[{"reference":"Practitioner/05269d28-15ae-5bd6-bd88-f949ccfa52d7"}],"context":{"reference":"Encounter/CUMC12345"}},{"resourceType":"Observation","id":"CUMC12345","status":"final","code":{"coding":[{"system":"LN","code":"89555-7","display":"In the last 30 days, other than the activities you did for work, on average, how many days per week did you engage in moderate exercise (like walking fast, running, jogging, dancing, swimming, biking, or other similar activities)?"}]},"subject":{"reference":"Patient/11223344","display":"Jon Doe"},"effectiveDateTime":"20231207  16:08:01 ","valueString":"3","performer":[{"reference":"Practitioner/05269d28-15ae-5bd6-bd88-f949ccfa52d7"}],"context":{"reference":"Encounter/CUMC12345"}},{"resourceType":"Observation","id":"CUMC12345","status":"final","code":{"coding":[{"system":"LN","code":"68516-4\t","display":"On average, how many minutes did you usually spend exercising at this level on one of those days?"}]},"subject":{"reference":"Patient/11223344","display":"Jon Doe"},"effectiveDateTime":"20231207  16:08:01 ","valueString":"40","performer":[{"reference":"Practitioner/05269d28-15ae-5bd6-bd88-f949ccfa52d7"}],"context":{"reference":"Encounter/CUMC12345"}},{"resourceType":"Observation","id":"CUMC12345","status":"final","code":{"coding":[{"system":null,"code":null,"display":"Calculated weekly physical activity"}]},"subject":{"reference":"Patient/11223344","display":"Jon Doe"},"effectiveDateTime":"20231207  16:08:01 ","valueString":"120","performer":[{"reference":"Practitioner/05269d28-15ae-5bd6-bd88-f949ccfa52d7"}],"context":{"reference":"Encounter/CUMC12345"}},{"resourceType":"Observation","id":"CUMC12345","status":"final","code":{"coding":[{"system":"LN","code":"68517-2","display":"How many times in the past 12 months have you had 5 or more drinks in a day (males) or 4 or more drinks in a day (females)?"}]},"subject":{"reference":"Patient/11223344","display":"Jon Doe"},"effectiveDateTime":"20231207  16:08:01 ","valueString":"Once or twice","performer":[{"reference":"Practitioner/05269d28-15ae-5bd6-bd88-f949ccfa52d7"}],"context":{"reference":"Encounter/CUMC12345"}},{"resourceType":"Observation","id":"CUMC12345","status":"final","code":{"coding":[{"system":"LN","code":"96842-0","display":"How often have you used any tobacco product in past 12 months?"}]},"subject":{"reference":"Patient/11223344","display":"Jon Doe"},"effectiveDateTime":"20231207  16:08:01 ","valueString":"Once or twice","performer":[{"reference":"Practitioner/05269d28-15ae-5bd6-bd88-f949ccfa52d7"}],"context":{"reference":"Encounter/CUMC12345"}},{"resourceType":"Observation","id":"CUMC12345","status":"final","code":{"coding":[{"system":"LN","code":"95530-2","display":"How many times in the past year have you used prescription drugs for non-medical reasons?"}]},"subject":{"reference":"Patient/11223344","display":"Jon Doe"},"effectiveDateTime":"20231207  16:08:01 ","valueString":"Once or twice","performer":[{"reference":"Practitioner/05269d28-15ae-5bd6-bd88-f949ccfa52d7"}],"context":{"reference":"Encounter/CUMC12345"}},{"resourceType":"Observation","id":"CUMC12345","status":"final","code":{"coding":[{"system":"LN","code":"68524-8","display":"How many times in the past year have you used illegal drugs?"}]},"subject":{"reference":"Patient/11223344","display":"Jon Doe"},"effectiveDateTime":"20231207  16:08:01 ","valueString":"Once or twice","performer":[{"reference":"Practitioner/05269d28-15ae-5bd6-bd88-f949ccfa52d7"}],"context":{"reference":"Encounter/CUMC12345"}},{"resourceType":"Observation","id":"CUMC12345","status":"final","code":{"coding":[{"system":"LN","code":"44250-9","display":"Little interest or pleasure in doing things?"}]},"subject":{"reference":"Patient/11223344","display":"Jon Doe"},"effectiveDateTime":"20231207  16:08:01 ","valueString":"Not at all","performer":[{"reference":"Practitioner/05269d28-15ae-5bd6-bd88-f949ccfa52d7"}],"context":{"reference":"Encounter/CUMC12345"}},{"resourceType":"Observation","id":"CUMC12345","status":"final","code":{"coding":[{"system":"LN","code":"44255-8","display":"\tFeeling down, depressed, or hopeless?"}]},"subject":{"reference":"Patient/11223344","display":"Jon Doe"},"effectiveDateTime":"20231207  16:08:01 ","valueString":"Not at all","performer":[{"reference":"Practitioner/05269d28-15ae-5bd6-bd88-f949ccfa52d7"}],"context":{"reference":"Encounter/CUMC12345"}},{"resourceType":"Observation","id":"CUMC12345","status":"final","code":{"coding":[{"system":null,"code":null,"display":"Calculated mental health score"}]},"subject":{"reference":"Patient/11223344","display":"Jon Doe"},"effectiveDateTime":"20231207  16:08:01 ","valueString":"0","performer":[{"reference":"Practitioner/05269d28-15ae-5bd6-bd88-f949ccfa52d7"}],"context":{"reference":"Encounter/CUMC12345"}},{"resourceType":"Observation","id":"CUMC12345","status":"final","code":{"coding":[{"system":"LN","code":"93038-8","display":"Stress means a situation in which a person feels tense, restless, nervous, or anxious, or is unable to sleep at night because his or her mind is troubled all the time. Do you feel this kind of stress these days?"}]},"subject":{"reference":"Patient/11223344","display":"Jon Doe"},"effectiveDateTime":"20231207  16:08:01 ","valueString":"Not at all","performer":[{"reference":"Practitioner/05269d28-15ae-5bd6-bd88-f949ccfa52d7"}],"context":{"reference":"Encounter/CUMC12345"}},{"resourceType":"Observation","id":"CUMC12345","status":"final","code":{"coding":[{"system":"LN","code":"69858-9","display":"Because of a physical, mental, or emotional condition, do you have serious difficulty concentrating, remembering, or making decisions?"}]},"subject":{"reference":"Patient/11223344","display":"Jon Doe"},"effectiveDateTime":"20231207  16:08:01 ","valueString":"No","performer":[{"reference":"Practitioner/05269d28-15ae-5bd6-bd88-f949ccfa52d7"}],"context":{"reference":"Encounter/CUMC12345"}},{"resourceType":"Observation","id":"CUMC12345","status":"final","code":{"coding":[{"system":"LN","code":"69861-3\t","display":"Because of a physical, mental, or emotional condition, do you have difficulty doing errands alone such as visiting a physician's office or shopping?"}]},"subject":{"reference":"Patient/11223344","display":"Jon Doe"},"effectiveDateTime":"20231207  16:08:01 ","valueString":"No","performer":[{"reference":"Practitioner/05269d28-15ae-5bd6-bd88-f949ccfa52d7"}],"context":{"reference":"Encounter/CUMC12345"}},{"resourceType":"Observation","id":"AMC12345","status":"final","code":{"coding":[{"system":"LN","code":"71802-3","display":"What is your living situation today?"}]},"subject":{"reference":"Patient/11335566","display":"Jane Smith"},"effectiveDateTime":"20230215  14:38:06 ","valueString":"I have a steady place to live","performer":[{"reference":"Practitioner/05269d28-15ae-5bd6-bd88-f949ccfa52d7"}],"context":{"reference":"Encounter/AMC12345"}},{"resourceType":"Observation","id":"AMC12345","status":"final","code":{"coding":[{"system":"LN","code":"96778-6\t","display":"Think about the place you live. Do you have problems with any of the following?"}]},"subject":{"reference":"Patient/11335566","display":"Jane Smith"},"effectiveDateTime":"20230215  14:38:06 ","valueString":"Lead paint or pipes; Water leaks","performer":[{"reference":"Practitioner/05269d28-15ae-5bd6-bd88-f949ccfa52d7"}],"context":{"reference":"Encounter/AMC12345"}},{"resourceType":"Observation","id":"AMC12345","status":"final","code":{"coding":[{"system":"LN","code":"88122-7","display":"Within the past 12 months, you worried that your food would run out before you got money to buy more."}]},"subject":{"reference":"Patient/11335566","display":"Jane Smith"},"effectiveDateTime":"20230215  14:38:06 ","valueString":"Sometimes true","performer":[{"reference":"Practitioner/05269d28-15ae-5bd6-bd88-f949ccfa52d7"}],"context":{"reference":"Encounter/AMC12345"}},{"resourceType":"Observation","id":"AMC12345","status":"final","code":{"coding":[{"system":"LN","code":"88123-5","display":"Within the past 12 months, the food you bought just didn't last and you didn't have money to get more."}]},"subject":{"reference":"Patient/11335566","display":"Jane Smith"},"effectiveDateTime":"20230215  14:38:06 ","valueString":"Sometimes true","performer":[{"reference":"Practitioner/05269d28-15ae-5bd6-bd88-f949ccfa52d7"}],"context":{"reference":"Encounter/AMC12345"}},{"resourceType":"Observation","id":"AMC12345","status":"final","code":{"coding":[{"system":"LN","code":"93030-5","display":"In the past 12 months, has lack of reliable transportation kept you from medical appointments, meetings, work or from getting things needed for daily living?"}]},"subject":{"reference":"Patient/11335566","display":"Jane Smith"},"effectiveDateTime":"20230215  14:38:06 ","valueString":"No","performer":[{"reference":"Practitioner/05269d28-15ae-5bd6-bd88-f949ccfa52d7"}],"context":{"reference":"Encounter/AMC12345"}},{"resourceType":"Observation","id":"AMC12345","status":"final","code":{"coding":[{"system":"LN","code":"96779-4","display":"In the past 12 months has the electric, gas, oil, or water company threatened to shut off services in your home?"}]},"subject":{"reference":"Patient/11335566","display":"Jane Smith"},"effectiveDateTime":"20230215  14:38:06 ","valueString":"Yes","performer":[{"reference":"Practitioner/05269d28-15ae-5bd6-bd88-f949ccfa52d7"}],"context":{"reference":"Encounter/AMC12345"}},{"resourceType":"Observation","id":"AMC12345","status":"final","code":{"coding":[{"system":"LN","code":"95618-5","display":" How often does anyone, including family and friends, physically hurt you?"}]},"subject":{"reference":"Patient/11335566","display":"Jane Smith"},"effectiveDateTime":"20230215  14:38:06 ","valueString":"Never ","performer":[{"reference":"Practitioner/05269d28-15ae-5bd6-bd88-f949ccfa52d7"}],"context":{"reference":"Encounter/AMC12345"}},{"resourceType":"Observation","id":"AMC12345","status":"final","code":{"coding":[{"system":"LN","code":"95617-7","display":" How often does anyone, including family and friends, insult or talk down to you?"}]},"subject":{"reference":"Patient/11335566","display":"Jane Smith"},"effectiveDateTime":"20230215  14:38:06 ","valueString":"Never ","performer":[{"reference":"Practitioner/05269d28-15ae-5bd6-bd88-f949ccfa52d7"}],"context":{"reference":"Encounter/AMC12345"}},{"resourceType":"Observation","id":"AMC12345","status":"final","code":{"coding":[{"system":"LN","code":"95616-9","display":"How often does anyone, including family and friends, threaten you with harm?"}]},"subject":{"reference":"Patient/11335566","display":"Jane Smith"},"effectiveDateTime":"20230215  14:38:06 ","valueString":"Never ","performer":[{"reference":"Practitioner/05269d28-15ae-5bd6-bd88-f949ccfa52d7"}],"context":{"reference":"Encounter/AMC12345"}},{"resourceType":"Observation","id":"AMC12345","status":"final","code":{"coding":[{"system":"LN","code":"95615-1","display":" How often does anyone, including family and friends, scream or curse at you?"}]},"subject":{"reference":"Patient/11335566","display":"Jane Smith"},"effectiveDateTime":"20230215  14:38:06 ","valueString":"Never ","performer":[{"reference":"Practitioner/05269d28-15ae-5bd6-bd88-f949ccfa52d7"}],"context":{"reference":"Encounter/AMC12345"}},{"resourceType":"Observation","id":"AMC12345","status":"final","code":{"coding":[{"system":"LN","code":"95614-4","display":"Safety total score"}]},"subject":{"reference":"Patient/11335566","display":"Jane Smith"},"effectiveDateTime":"20230215  14:38:06 ","valueString":"4","performer":[{"reference":"Practitioner/05269d28-15ae-5bd6-bd88-f949ccfa52d7"}],"context":{"reference":"Encounter/AMC12345"}},{"resourceType":"Observation","id":"AMC12345","status":"final","code":{"coding":[{"system":"LN","code":"76513-1","display":"How hard is it for you to pay for the very basics like food, housing, medical care, and heating?"}]},"subject":{"reference":"Patient/11335566","display":"Jane Smith"},"effectiveDateTime":"20230215  14:38:06 ","valueString":"Very hard","performer":[{"reference":"Practitioner/05269d28-15ae-5bd6-bd88-f949ccfa52d7"}],"context":{"reference":"Encounter/AMC12345"}},{"resourceType":"Observation","id":"AMC12345","status":"final","code":{"coding":[{"system":"LN","code":"96780-2","display":"Do you want help finding or keeping work or a job?"}]},"subject":{"reference":"Patient/11335566","display":"Jane Smith"},"effectiveDateTime":"20230215  14:38:06 ","valueString":"I do not need or want help","performer":[{"reference":"Practitioner/05269d28-15ae-5bd6-bd88-f949ccfa52d7"}],"context":{"reference":"Encounter/AMC12345"}},{"resourceType":"Observation","id":"AMC12345","status":"final","code":{"coding":[{"system":"LN","code":"96781-0","display":"If for any reason you need help with day-to-day activities such as bathing, preparing meals, shopping, managing finances, etc., do you get the help you need?"}]},"subject":{"reference":"Patient/11335566","display":"Jane Smith"},"effectiveDateTime":"20230215  14:38:06 ","valueString":"I don't need any help","performer":[{"reference":"Practitioner/05269d28-15ae-5bd6-bd88-f949ccfa52d7"}],"context":{"reference":"Encounter/AMC12345"}},{"resourceType":"Observation","id":"AMC12345","status":"final","code":{"coding":[{"system":"LN","code":"93159-2\t","display":"How often do you feel lonely or isolated from those around you?"}]},"subject":{"reference":"Patient/11335566","display":"Jane Smith"},"effectiveDateTime":"20230215  14:38:06 ","valueString":"Never ","performer":[{"reference":"Practitioner/05269d28-15ae-5bd6-bd88-f949ccfa52d7"}],"context":{"reference":"Encounter/AMC12345"}},{"resourceType":"Observation","id":"AMC12345","status":"final","code":{"coding":[{"system":"LN","code":"97027-7","display":"Do you speak a language other than English at home?"}]},"subject":{"reference":"Patient/11335566","display":"Jane Smith"},"effectiveDateTime":"20230215  14:38:06 ","valueString":"Yes","performer":[{"reference":"Practitioner/05269d28-15ae-5bd6-bd88-f949ccfa52d7"}],"context":{"reference":"Encounter/AMC12345"}},{"resourceType":"Observation","id":"AMC12345","status":"final","code":{"coding":[{"system":"LN","code":"96782-8\t","display":"Do you want help with school or training? For example, starting or completing job training or getting a high school diploma, GED or equivalent."}]},"subject":{"reference":"Patient/11335566","display":"Jane Smith"},"effectiveDateTime":"20230215  14:38:06 ","valueString":"No","performer":[{"reference":"Practitioner/05269d28-15ae-5bd6-bd88-f949ccfa52d7"}],"context":{"reference":"Encounter/AMC12345"}},{"resourceType":"Observation","id":"AMC12345","status":"final","code":{"coding":[{"system":"LN","code":"89555-7","display":"In the last 30 days, other than the activities you did for work, on average, how many days per week did you engage in moderate exercise (like walking fast, running, jogging, dancing, swimming, biking, or other similar activities)?"}]},"subject":{"reference":"Patient/11335566","display":"Jane Smith"},"effectiveDateTime":"20230215  14:38:06 ","valueString":"4","performer":[{"reference":"Practitioner/05269d28-15ae-5bd6-bd88-f949ccfa52d7"}],"context":{"reference":"Encounter/AMC12345"}},{"resourceType":"Observation","id":"AMC12345","status":"final","code":{"coding":[{"system":"LN","code":"68516-4\t","display":"On average, how many minutes did you usually spend exercising at this level on one of those days?"}]},"subject":{"reference":"Patient/11335566","display":"Jane Smith"},"effectiveDateTime":"20230215  14:38:06 ","valueString":"40","performer":[{"reference":"Practitioner/05269d28-15ae-5bd6-bd88-f949ccfa52d7"}],"context":{"reference":"Encounter/AMC12345"}},{"resourceType":"Observation","id":"AMC12345","status":"final","code":{"coding":[{"system":null,"code":null,"display":"Calculated weekly physical activity"}]},"subject":{"reference":"Patient/11335566","display":"Jane Smith"},"effectiveDateTime":"20230215  14:38:06 ","valueString":"160","performer":[{"reference":"Practitioner/05269d28-15ae-5bd6-bd88-f949ccfa52d7"}],"context":{"reference":"Encounter/AMC12345"}},{"resourceType":"Observation","id":"AMC12345","status":"final","code":{"coding":[{"system":"LN","code":"68517-2","display":"How many times in the past 12 months have you had 5 or more drinks in a day (males) or 4 or more drinks in a day (females)?"}]},"subject":{"reference":"Patient/11335566","display":"Jane Smith"},"effectiveDateTime":"20230215  14:38:06 ","valueString":"Never ","performer":[{"reference":"Practitioner/05269d28-15ae-5bd6-bd88-f949ccfa52d7"}],"context":{"reference":"Encounter/AMC12345"}},{"resourceType":"Observation","id":"AMC12345","status":"final","code":{"coding":[{"system":"LN","code":"96842-0","display":"How often have you used any tobacco product in past 12 months?"}]},"subject":{"reference":"Patient/11335566","display":"Jane Smith"},"effectiveDateTime":"20230215  14:38:06 ","valueString":"Never ","performer":[{"reference":"Practitioner/05269d28-15ae-5bd6-bd88-f949ccfa52d7"}],"context":{"reference":"Encounter/AMC12345"}},{"resourceType":"Observation","id":"AMC12345","status":"final","code":{"coding":[{"system":"LN","code":"95530-2","display":"How many times in the past year have you used prescription drugs for non-medical reasons?"}]},"subject":{"reference":"Patient/11335566","display":"Jane Smith"},"effectiveDateTime":"20230215  14:38:06 ","valueString":"Never ","performer":[{"reference":"Practitioner/05269d28-15ae-5bd6-bd88-f949ccfa52d7"}],"context":{"reference":"Encounter/AMC12345"}},{"resourceType":"Observation","id":"AMC12345","status":"final","code":{"coding":[{"system":"LN","code":"68524-8","display":"How many times in the past year have you used illegal drugs?"}]},"subject":{"reference":"Patient/11335566","display":"Jane Smith"},"effectiveDateTime":"20230215  14:38:06 ","valueString":"Never ","performer":[{"reference":"Practitioner/05269d28-15ae-5bd6-bd88-f949ccfa52d7"}],"context":{"reference":"Encounter/AMC12345"}},{"resourceType":"Observation","id":"AMC12345","status":"final","code":{"coding":[{"system":"LN","code":"44250-9","display":"Little interest or pleasure in doing things?"}]},"subject":{"reference":"Patient/11335566","display":"Jane Smith"},"effectiveDateTime":"20230215  14:38:06 ","valueString":"Not at all","performer":[{"reference":"Practitioner/05269d28-15ae-5bd6-bd88-f949ccfa52d7"}],"context":{"reference":"Encounter/AMC12345"}},{"resourceType":"Observation","id":"AMC12345","status":"final","code":{"coding":[{"system":"LN","code":"44255-8","display":"\tFeeling down, depressed, or hopeless?"}]},"subject":{"reference":"Patient/11335566","display":"Jane Smith"},"effectiveDateTime":"20230215  14:38:06 ","valueString":"Not at all","performer":[{"reference":"Practitioner/05269d28-15ae-5bd6-bd88-f949ccfa52d7"}],"context":{"reference":"Encounter/AMC12345"}},{"resourceType":"Observation","id":"AMC12345","status":"final","code":{"coding":[{"system":null,"code":null,"display":"Calculated mental health score"}]},"subject":{"reference":"Patient/11335566","display":"Jane Smith"},"effectiveDateTime":"20230215  14:38:06 ","valueString":"0","performer":[{"reference":"Practitioner/05269d28-15ae-5bd6-bd88-f949ccfa52d7"}],"context":{"reference":"Encounter/AMC12345"}},{"resourceType":"Observation","id":"AMC12345","status":"final","code":{"coding":[{"system":"LN","code":"93038-8","display":"Stress means a situation in which a person feels tense, restless, nervous, or anxious, or is unable to sleep at night because his or her mind is troubled all the time. Do you feel this kind of stress these days?"}]},"subject":{"reference":"Patient/11335566","display":"Jane Smith"},"effectiveDateTime":"20230215  14:38:06 ","valueString":"Not at all","performer":[{"reference":"Practitioner/05269d28-15ae-5bd6-bd88-f949ccfa52d7"}],"context":{"reference":"Encounter/AMC12345"}},{"resourceType":"Observation","id":"AMC12345","status":"final","code":{"coding":[{"system":"LN","code":"69858-9","display":"Because of a physical, mental, or emotional condition, do you have serious difficulty concentrating, remembering, or making decisions?"}]},"subject":{"reference":"Patient/11335566","display":"Jane Smith"},"effectiveDateTime":"20230215  14:38:06 ","valueString":"No","performer":[{"reference":"Practitioner/05269d28-15ae-5bd6-bd88-f949ccfa52d7"}],"context":{"reference":"Encounter/AMC12345"}},{"resourceType":"Observation","id":"AMC12345","status":"final","code":{"coding":[{"system":"LN","code":"69861-3\t","display":"Because of a physical, mental, or emotional condition, do you have difficulty doing errands alone such as visiting a physician's office or shopping?"}]},"subject":{"reference":"Patient/11335566","display":"Jane Smith"},"effectiveDateTime":"20230215  14:38:06 ","valueString":"No","performer":[{"reference":"Practitioner/05269d28-15ae-5bd6-bd88-f949ccfa52d7"}],"context":{"reference":"Encounter/AMC12345"}}]}
